Acquired on 7/25/2022 at 15:13:27
Calibrated on 7/25/2022 at 12:48:45
Device Descriptor:  [none]
Scan Range (nm):  1540.112  --  1561.029
Measurement Type:  Reflection
Group Index:  1.500
Gain:  24 dB
Domain:  Time
Spatial Resolution (mm):  0.100314
Frequency domain window was not applied to measurement data.
Gage length:  0.501910 cm
Sensor spacing:  0.999988 cm
Temperature change coefficients
	0.000000
	-0.801388
	0.000000
	0.000000
	0.000000
Strain coefficients
	0.000000
	-6.668000
	0.000000
	0.000000
	0.000000
Number of Data Points (in this file):  80
NOTE: Data stored in this file is not decimated.

Length (m)	Temperature Change (deg C)	Strain (microstrain)	
1.82590914E+000	-2.52288818E+000	-2.07176376E-002	
1.83590901E+000	-2.52733874E+000	1.88740778E+000	
1.84590900E+000	-2.51423359E+000	2.47798283E-002	
1.85590887E+000	-2.03997135E+000	2.43173633E-002	
1.86590874E+000	-2.52956438E+000	2.39221379E-002	
1.87590861E+000	-2.51547003E+000	2.36028098E-002	
1.88590848E+000	-2.04194927E+000	2.33639181E-002	
1.89590836E+000	-2.04244375E+000	2.32057218E-002	
1.90590823E+000	-2.04120755E+000	2.31241770E-002	
1.91590810E+000	-2.03626227E+000	2.31111534E-002	
1.92590797E+000	-1.53381109E+000	2.31548753E-002	
1.93590784E+000	-1.00416040E+000	2.32403949E-002	
1.94590783E+000	-1.02344739E+000	2.33503990E-002	
1.95590770E+000	-1.01182580E+000	2.34658290E-002	
1.96590757E+000	-1.00861120E+000	2.35667937E-002	
1.97590744E+000	-1.01157844E+000	2.36329474E-002	
1.98590732E+000	-1.01108396E+000	2.36439947E-002	
1.99590719E+000	-1.00984764E+000	2.35798508E-002	
2.00590706E+000	-1.02493095E+000	2.34203152E-002	
2.01590705E+000	-1.01825476E+000	2.31442694E-002	
2.02590680E+000	-1.02270555E+000	2.27281731E-002	
2.03590679E+000	-1.53208029E+000	2.21446436E-002	
2.04590654E+000	-2.04071307E+000	2.13652086E-002	
2.05590653E+000	-2.04417491E+000	2.03681663E-002	
2.06590629E+000	-2.53846622E+000	1.91436298E-002	
2.07590628E+000	-2.53154254E+000	1.76927168E-002	
2.08590603E+000	-2.03205872E+000	1.60250310E-002	
2.09590602E+000	-2.02612424E+000	1.41566498E-002	
2.10590601E+000	-1.02344739E+000	1.21088568E-002	
2.11590576E+000	3.04746985E+000	9.90718789E-003	
2.12590575E+000	1.87472115E+001	7.58068589E-003	
2.13590550E+000	3.44355850E+001	5.16110333E-003	
2.14590549E+000	3.64528046E+001	2.68223207E-003	
2.15590525E+000	4.55806236E+001	1.79135779E-004	
2.16590524E+000	6.28023109E+001	2.31263251E-003	
2.17590499E+000	1.31168930E+002	4.75781877E-003	
2.18590498E+000	1.78244278E+002	7.12231733E-003	
2.19590473E+000	1.60542023E+002	9.37386975E-003	
2.20590472E+000	1.17466858E+002	1.14829922E-002	
2.21590471E+000	7.69751587E+001	1.34235779E-002	
2.22590446E+000	5.46938591E+001	1.51735991E-002	
2.23590446E+000	4.60909882E+001	1.67154688E-002	
2.24590421E+000	5.01547318E+001	1.80364139E-002	
2.25590420E+000	6.53275452E+001	1.91284660E-002	
2.26590395E+000	8.50774307E+001	1.99883878E-002	
2.27590394E+000	6.17777481E+001	2.06172857E-002	
2.28590369E+000	3.54669380E+001	2.10201368E-002	
2.29590368E+000	2.93696518E+001	2.12053619E-002	
2.30590343E+000	2.68470097E+001	2.11841185E-002	
2.31590343E+000	2.53263054E+001	2.09699124E-002	
2.32590342E+000	1.62202454E+001	2.05781218E-002	
2.33590317E+000	2.52511358E+000	2.00257748E-002	
2.34590316E+000	-1.01380384E+000	1.93314161E-002	
2.35590291E+000	-1.50586963E+000	1.85153466E-002	
2.36590290E+000	-1.53109109E+000	1.75998770E-002	
2.37590265E+000	-2.02290964E+000	1.66094843E-002	
2.38590264E+000	-2.03230596E+000	1.55697791E-002	
2.39590240E+000	-2.01895356E+000	1.45052159E-002	
2.40590239E+000	-1.53232753E+000	1.34362923E-002	
2.41590238E+000	-1.53554201E+000	1.23778833E-002	
2.42590213E+000	-1.51304042E+000	1.13390619E-002	
2.43590212E+000	-1.02023292E+000	1.03242658E-002	
2.44590187E+000	-5.22974432E-001	9.33443010E-003	
2.45590186E+000	-9.99214947E-001	8.36853962E-003	
2.46590161E+000	-1.01306212E+000	7.42510939E-003	
2.47590160E+000	-1.00094593E+000	6.50373241E-003	
2.48590136E+000	-1.02171648E+000	5.60654560E-003	
2.49590135E+000	-1.02592003E+000	4.73968964E-003	
2.50590110E+000	-1.01034212E+000	3.91408568E-003	
2.51590109E+000	-5.20501792E-001	3.14562093E-003	
2.52590108E+000	-5.09621918E-001	2.45403871E-003	
2.53590083E+000	-2.01054621E+000	1.86104374E-003	
2.54590082E+000	-2.55132413E+000	1.38817390E-003	
2.55590057E+000	-3.03968072E+000	1.05476950E-003	
2.56590056E+000	-3.03992796E+000	8.76973791E-004	
2.57590032E+000	-3.03646636E+000	8.67419876E-004	
2.58590031E+000	-3.03399348E+000	1.03553676E-003	
2.59590006E+000	-2.51794267E+000	1.38806272E-003	
2.60590005E+000	-2.04269123E+000	1.92959781E-003	
2.61589980E+000	-2.00930977E+000	2.66321795E-003	
